Folder: EvolvMorph/crystal_morphing_with_bayesian_for_xrd/struct

Note: crystal_morphing_with_bayesian_for_xrd/README.md
# Crystal morphing with Bayesian for reproducing XRD

(Last update: June 19th, 2023)  
- Project researchers in Toyota Central R&D Lab. Inc.: Joohwi Lee, Junpei Oba, Nobuko Ohba, and Seiji Kajita. <br>

Create intermediate structures by crystal morphing to increase their XRD similarity of vs. target based on Bayesian optimiation. <br>


## Required work
Crystal morphing should work well. <br>

See README.md and jupyter notebook at ./crystal_morphing_main. <br>

## Run crystal morphing

Basically, how to run is written in jupyter notebook.


#### 1. Check INPUT.csv and morphing_with_bo_vs_xrd_csv.py
You may change the following parameters in INPUT.csv and morphing_with_bo_vs_xrd_csv.py.<br>

The parameter written in morphing_with_bo_vs_xrd_csv.py takes precedence over those in morphing main code. 

#### Prepare INPUT.csv
- **target** : insert path of target csv file including XRD (2theta, XRD intensity)

- **input_struct** : insert path of structures
-  (optional : structure_selection_pair is "Limited" case) <br>
  **input_struct1** & **input_struct2** : insert path of structures seperated into two groups

- **num_init_data** : number of initial random data samples for Bayesian optimization <br>

- **num_core** : number of data for validation for Bayesian optimization, if >1, do parallel

- **num_iter** : number of iteration number of Bayesian optimization

- **initial_step_boolean** : generate initial points for Bayesian (0%, 25%, 50%, 75%, 100%)

- **random_seed** : random seed for initial points (if initial_step_boolean exists, second step)
<br>

- **soap_max_steps** : maximum iteration of soap (default optimizer is steepest descent, if >15, it change to L-BFGS)

- **multi_species** : if chemical elements >=2, set True
<br>

- **structure_selection_pair** : selection of input structures for exploration path <br>
  True : All-pairs investgation, False : greedy algorithm, Limited : Limited-pairs investigation (see input_struct part)
<br>

- **xray_wavelength** : xray_wavelength : XRD source wavelength for pymatgen option

- **volume_list** : insert volume list for cossine similarity, such as 0.90,0.95, 1.00, 1.05, 1.10

- **xrd_sigma** : smearing factor (default : 0.5)
<br>

- **bool_gsas** : XRD is generated from GSAS-II (True). Otherwise, it is generated from pymatgen (False)
<br>

- (Optional) Prepare INST_XRD.PRM (necessary when bool_gsas is True)


#### 2. Execute crystal_morphing.py
> python ./morphing_with_bo_vs_xrd_csv.py |tee log

#### 3. Check result
Intermediate structures will be outputted in the "output/[materialname]_search" directory by default.

See output_list.csv and all_cossim_output.csv


## Citation

If you find it useful to use this program in your research, please cite the following paper.

- Evolv&Morph
```
Joohwi Lee, Junpei Oba, Nobuko Ohba, and Seiji Kajita, submitted., preprint arXiv 2302.10464 (2023).
```
When accepted, the reference will be changed into an accepted journal.


- Crystal Morphing
```
Junpei Oba and Sei

File: Li5BiO5.csv
0.000000000000000000e+00,1.12105
0.61,1.12189
1.22,1.12274
1.83,1.12359
2.44,1.12445
3.05,1.12532
3.66,1.12621
4.27,1.1271
4.88,1.128
5.49,1.12891
6.1,1.12982
6.71,1.13075
7.32,1.13169
7.93,1.13264
8.54,1.1336
9.15,1.13457
9.76,1.13555
10.37,1.13654
10.98,1.13755
11.59,14.0995
12.2,20.5886
12.81,33.5213
13.42,65.4334
14.03,185.262
14.64,1951.44
15.25,1257.59
15.86,179.702
16.47,102.035
17.08,174.667
17.69,6055.6
18.3,315.891
18.91,87.3623
19.52,58.5756
20.13,72.5453
20.74,127.629
21.35,405.883
21.96,201058
22.57,747.503
23.18,9694.06
23.79,618.937
24.4,164.301
25.01,113.691
25.62,161.555
26.23,704.573
26.84,6834.81
27.45,256.573
28.06,88.0635
28.67,50.9233
29.28,60.195
29.89,710.39
30.5,155.993
31.11,35.4116
31.72,28.8232
32.33,30.1991
32.94,61.9698
33.55,694.331
34.16,272.418
34.77,551.222
35.38,2128.68
35.99,15348
36.6,525.767
37.21,13242.5
37.82,1640.05
38.43,236.675
39.04,1705.01
39.65,306.437
40.26,199.683
40.87,20740
41.48,145.384
42.09,67.2726
42.7,75.1697
43.31,278.399
43.92,1213.46
44.53,359.185
45.14,713.129
45.75,38884.1
46.36,452.74
46.97,379.062
47.58,55709.9
48.19,356.537
48.8,156.655
49.41,3080.27
50.02,771.415
50.63,282.664
51.24,3273.17
51.85,555.123
52.46,913.561
53.07,331.895
53.68,110.075
54.29,189.128
54.9,33653.8
55.51,7512.57
56.12,189.672
56.73,128.993
57.34,506.597
57.95,8522.62
58.56,368.768
59.17,334.566
59.78,20862.3
60.39,138.244
61,60.5123
61.61,55.466
62.22,135.903
62.83,639.656
63.44,301.71
64.05,4693.93
64.66,13765.5
65.27,425.952
65.88,3737.51
66.49,444.265
67.1,19495.6
67.71,156.101
68.32,82.6905
68.93,187.187
69.54,2929.59
70.15,1903.37
70.76,770.639
71.37,9941.83
71.98,3197.62
72.59,644.398
73.2,8264.43
73.81,215.127
74.42,2475.39
75.03,2456.42
75.64,104.806
76.25,260.362
76.86,203.883
77.47,1940.73
78.08,6288.42
78.69,989.821
79.3,465.461
79.91,397.223
80.52,642.827
81.13,4672.06
81.74,240.816
82.35,2001.55
82.96,826.545
83.57,4532.03
84.18,6756.43
84.79,464.248
85.4,614.094
86.01,84.8623
86.62,135.548
87.23,1096.16
87.84,3644.54
88.45,11405.5
89.06,1494.99
89.67,174.794
90.28,1514.51
90.89,1097.43
91.5,1351.75
92.11,1924.68
92.72,2828.95
93.33,1709.82
93.94,2601.58
94.55,201.297
95.16,835.324
95.77,860.563
96.38,485.073
96.99,144.193
97.6,6787.4
98.21,6278.08
98.82,3638.68
99.43,8504.45
100.04,610.625
100.65,3961.19
101.26,2708.84
101.87,3189.07
102.48,2022.67
103.09,406.755
103.7,280.891
104.31,76.1182
104.92,1339.09
105.53,3223.05
106.14,1536.04
106.75,1513.37
107.36,5968.46
107.97,1678.45
108.58,861.258
109.19,3151.61
109.8,1384.84
110.41,73.0934
111.02,55.3679
111.63,89.1627
112.24,3685.86
112.85,783.124
113.46,1692.5
114.07,1771.4
114.68,126.133
115.29,163.606
115.9,5508.44
116.51,936.812
117.12,525.057
117.73,2035.98
118.34,1639.38
118.95,604.879
119.56,2277.37
120.17,3276.3
120.78,1686.94
121.39,1715.14
122,689.05
122.61,2865.86
123.22,4257.84
123.83,3042.67
124.44,6285.84
125.05,4251.41
125.66,517.925
126.27,110.976
126.88,127.146
127.49,236.072
128.1,134.141
128.71,344.563
129.32,377.639
129.93,3870.09
130.54,5272.16
131.15,2223.12
131.76,2887.29
132.37,1561.85
132.98,440.386
133.59,525.364
134.2,840.563
134.81,2791.16
135.42,1023.78
136.03,3230.81
136.64,896.9
137.25,1064.45
137.86,3205.56
138.47,1305.77
139.08,1095.51
139.69,3020.91
140.3,5085
140.91,899.134
141.52,364.044
142.13,122.527
142.74,114.39
143.35,190.056
143.96,2225.84
144.57,2990.48
145.18,1407.78
145.79,1902.39
146.4,1315.53
147.01,1437.76
147.62,1088.63
148.23,1949.42
148.84,4347.87
149.45,4227.96
150.06,3206.21
150.67,3923.55
151.28,1234.46
151.89,2163.42
152.5,639.735
153.11,1552.72
153.72,310.411
154.33,302.95
154.94,99.6706
155.55,81.3582
156.16,82.0103
156.77,97.2209
157.38,146.785
157.99,445.931
158.6,1386.16
159.21,568.221
159.82,3471.53
160.43,1427.96
161.04,711.364
161.65,1400.53
162.26,2202.22
162.87,619.455
163.48,388.119
164.09,1386.06
164.7,1607.47
165.31,499.422
165.92,670.987
166.53,2802.1
167.14,3341.47
167.75,2125.23
168.36,744.089
168.97,1366.96
169.58,1443.69
170.19,1451.37
170.8,474.974
171.41,353.309
172.02,417.814
172.63,704.139
173.24,1220.77
173.85,1086.33
174.46,1024.82
175.07,1442.39
175.68,2165.51
176.29,2549.89
176.9,2069.84
177.51,1529.49
178.12,1332.55
178.73,939.135
179.34,628.561
179.95,511.819
180,505.95