Folder: EvolvMorph/uspex_example_for_xrd/Specific

Note: README.md
# Evolv&Morph
(Last update : August 07, 2023)
- Project researchers in Toyota Central R&D Labs., Inc. : Joohwi Lee, Junpei Oba, Nobuko Ohba, and  Seiji Kajita.
 
Evolv&Morph is a useful inverse design scheme. <br>

This is applied to create a crystal structure reproducing a given XRD pattern. <br>

This program involves:
- Evolutionary algorithm : modified parts of USPEX for XRD application <br>

  See original code of USPEX 9.4.4 developed by Prof. Oganov et al., https://uspex-team.org)

- Crystal morphing (Oba and Kajita, Phys. Rev. Mater. 6, 023801 (2022)) and bayesian optimization for XRD application 

- Other XRD-related tools


## Installation

It is recommended to use ubuntu. (Mac might be fine.) <br>

The result in the paper is obtained using ubuntu18.04, python3.7. <br>

The last test was done (June 19, 2023) using ubuntu18.04 and python3.9 created in docker.

1. Download Evolv&Morph code from github.

2. Update apt-get and install common/required packages. (sudo apt-get could be needed sometimes.) <br>
   Note that some of them are essential, but some of them are not so.

>  apt-get update --yes <br>

>  apt-get install --yes --no-install-recommends wget ca-certificates sudo locales fonts-liberation <br>

>  apt-get install --yes --no-install-recommends file git less nano patch tzdata unzip vim <br>

>  apt-get install --yes --no-install-recommends gnuplot ghostscript epstool epstool fig2dev pstoedit <br>

>  apt-get install --yes --no-install-recommends octave <br>

>  apt-get install --yes --no-install-recommends openssh-client <br>

>  apt-get install --yes --no-install-recommends firefox <br>

3. install required programs via mambaforge or pip (other conda such as miniconda  might be fine.)

> wget https://github.com/conda-forge/miniforge/releases/latest/download/Mambaforge-Linux-x86_64.sh <br>

> bash ./Mambaforge-Linux-x86_64.sh <br>

> mamba install --quiet --yes ipywidgets widgetsnbextension <br>

> mamba install --quiet --yes numpy=1.23.1 scipy pandas matplotlib ipympl zstandard zstd openssl  <br>

> mamba install --quiet --yes ase networkx pymatgen==2020.12.31 sympy   <br>

> mamba install --quiet --yes blas lapack libblas  <br>

> mamba install --quiet --yes gpy==1.10.0 gpyopt==1.2.6 paramz==0.9.5    <br>

> mamba install --quiet --yes gcc gfortran make nglview   <br>

> mamba install --quiet --yes notebook nb_conda_kernels  <br>

> mamba clean --all -f -y    <br>

> pip install rise <br> 

  Note that rise is installed via pip at python3.9. Mamba make error. <br>

4. Install GSAS-II for simulation of XRD from cif file.

  For the detail, see installation pages of GSAS-II. <br>

  https://subversion.xray.aps.anl.gov/trac/pyGSAS/wiki/LinuxSingleStepInstaller   <br>

  https://gsas-ii.readthedocs.io/en/latest/packages.html   <br>
<br>
> mamba install --quiet --yes wxpython <br>

> mamba install --quiet --yes pyopengl pillow h5py imageio subversion <br>

> svn co https://subversion.xray.aps.anl.gov/pyGSAS/trunk ~/GSASII <br> 

>

File: xrd_target.csv
0.01,1
0.61,1
1.21,1
1.81,1
2.41,1
3.01,1
3.61,1
4.21,1
4.81,1
5.41,1
6.01,1
6.61,1
7.21,1
7.81,1
8.41,1
9.01,1
9.61,1
10.21,1
10.81,1
11.41,1
12.01,1
12.61,1
13.21,1
13.81,1
14.41,1
15.01,1
15.61,1
16.21,1
16.81,1
17.41,1
18.01,1
18.61,1
19.21,1
19.81,1
20.41,1
21.01,1
21.61,1
22.21,1
22.81,1
23.41,1
24.01,1.76221
24.61,2.12005
25.21,2.80486
25.81,4.38176
26.41,9.49213
27.01,50.4302
27.61,329.896
28.21,24.9231
28.81,18.5374
29.41,23.3485
30.01,38.2387
30.61,83.8012
31.21,344.921
31.81,96097.8
32.41,295.287
33.01,76.8922
33.61,35.0755
34.21,20.2821
34.81,13.3857
35.41,9.62249
36.01,7.34621
36.61,5.8654
37.21,4.84835
37.81,1
38.41,1
39.01,1
39.61,1
40.21,1
40.81,1
41.41,6.65337
42.01,8.72039
42.61,12.1696
43.21,18.578
43.81,32.6346
44.41,74.0273
45.01,319.455
45.61,34965.4
46.21,245.61
46.81,65.0435
47.41,29.9862
48.01,17.4626
48.61,11.5991
49.21,8.39031
49.81,6.66843
50.41,5.48178
51.01,4.74381
51.61,4.36437
52.21,4.17892
52.81,6.36102
53.41,15.7201
54.01,1795.44
54.61,22.1282
55.21,22.9732
55.81,60.4511
56.41,975.118
57.01,300.589
57.61,41.9422
58.21,16.704
58.81,9.27991
59.41,6.11561
60.01,4.47663
60.61,3.51809
61.21,2.83262
61.81,3.36615
62.41,3.38491
63.01,3.65238
63.61,3.51826
64.21,5.07901
64.81,8.71778
65.41,20.8598
66.01,132.666
66.61,1646.77
67.21,33.8154
67.81,11.3465
68.41,6.13432
69.01,4.1057
69.61,3.14774
70.21,4.1346
70.81,5.19841
71.41,6.15147
72.01,8.22948
72.61,14.8545
73.21,1609.78
73.81,33.1736
74.41,53.5067
75.01,259.301
75.61,7804.14
76.21,137.214
76.81,38.1594
77.41,18.2006
78.01,10.9061
78.61,8.51879
79.21,7.49156
79.81,6.88859
80.41,6.97635
81.01,7.82114
81.61,9.8524
82.21,14.4746
82.81,26.5827
83.41,75.6087
84.01,1288.01
84.61,635.844
85.21,59.03
85.81,22.2712
86.41,12.0938
87.01,7.9115
87.61,5.85725
88.21,4.81221
88.81,4.46564
89.41,5.15518
90.01,10.8146
90.61,1452.2
91.21,21.8742
91.81,5.34508
92.41,3.32704
93.01,2.23296
93.61,1.78624
94.21,1.70354
94.81,1.69449
95.41,1.73832
96.01,1.83277
96.61,1.98861
97.21,2.20309
97.81,2.61095
98.41,3.27531
99.01,4.88628
99.61,7.4381
100.21,14.3159
100.81,47.9184
101.41,6141.73
102.01,150.143
102.61,21.8057
103.21,10.0894
103.81,6.75934
104.41,5.57517
105.01,5.30564
105.61,5.67209
106.21,6.82405
106.81,9.97755
107.41,20.6628
108.01,845.44
108.61,130.388
109.21,45.177
109.81,150.678
110.41,5879.04
111.01,338.58
111.61,49.4581
112.21,21.2377
112.81,12.5806
113.41,8.86573
114.01,7.18839
114.61,6.36839
115.21,6.04891
115.81,6.11757
116.41,6.76623
117.01,8.37664
117.61,11.4593
118.21,18.5952
118.81,40.1478
119.41,202.456
120.01,1035.37
120.61,231.909
121.21,39.3365
121.81,17.8494
122.41,11.0604
123.01,8.16652
123.61,6.78125
124.21,6.17667
124.81,6.10394
125.41,6.56249
126.01,7.88128
126.61,11.7232
127.21,39.4307
127.81,87.8958
128.41,47.0207
129.01,35.353
129.61,93.9291
130.21,2358.89
130.81,1186.18
131.41,125.401
132.01,34.2088
132.61,17.2117
133.21,10.9442
133.81,7.93992
134.41,6.28698
135.01,5.30503
135.61,4.70256
136.21,4.34018
136.81,4.14866
137.41,4.09704
138.01,4.18129
138.61,4.37458
139.21,4.84676
139.81,5.68896
140.41,7.25472
141.01,10.5425
141.61,19.0412
142.21,60.6692
142.81,1801.43
143.41,198.651
144.01,102.896
144.61,21.4113
145.21,11.0168
145.81,7.61252
146.41,6.12607
147.01,5.41081
147.61,5.08481
148.21,4.99409
148.81,5.07256
149.41,5.29639
150.01,5.6685
150.61,6.21649
151.21,7.00111
151.81,8.14168
152.41,9.88243
153.01,12.7851
153.61,18.4174
154.21,32.8312
154.81,100.86
155.41,1203.05
156.01,123.751
156.61,543.942
157.21,82.4227
157.81,43.2875
158.41,44.6921
159.01,60.9067
159.61,103.461
160.21,240.229
160.81,1279.74
161.41,2715.19
162.01,449.064
162.61,1063.92
163.21,932.619
163.81,162.835
164.41,72.004
165.01,42.2439
165.61,28.4279
166.21,20.7425
166.81,15.9716
167.41,12.7836
168.01,10.5372
168.61,8.88951
169.21,7.6423
169.81,6.6739
170.41,5.90601
171.01,5.28624
171.61,4.77843
172.21,4.35689
172.81,4.00294
173.41,3.70276
174.01,3.44588
174.61,3.2243
175.21,3.03179
175.81,2.86344
176.41,2.71535
177.01,2.58437
177.61,2.46795
178.21,2.30136
178.81,2.2113
179.41,2.09873
180,2.02837