Folder: EvolvMorph/utils_for_xrd/cossim_vs_xrdcsv

Note: README.md
# Evolv&Morph
(Last update : August 07, 2023)
- Project researchers in Toyota Central R&D Labs., Inc. : Joohwi Lee, Junpei Oba, Nobuko Ohba, and  Seiji Kajita.
 
Evolv&Morph is a useful inverse design scheme. <br>

This is applied to create a crystal structure reproducing a given XRD pattern. <br>

This program involves:
- Evolutionary algorithm : modified parts of USPEX for XRD application <br>

  See original code of USPEX 9.4.4 developed by Prof. Oganov et al., https://uspex-team.org)

- Crystal morphing (Oba and Kajita, Phys. Rev. Mater. 6, 023801 (2022)) and bayesian optimization for XRD application 

- Other XRD-related tools


## Installation

It is recommended to use ubuntu. (Mac might be fine.) <br>

The result in the paper is obtained using ubuntu18.04, python3.7. <br>

The last test was done (June 19, 2023) using ubuntu18.04 and python3.9 created in docker.

1. Download Evolv&Morph code from github.

2. Update apt-get and install common/required packages. (sudo apt-get could be needed sometimes.) <br>
   Note that some of them are essential, but some of them are not so.

>  apt-get update --yes <br>

>  apt-get install --yes --no-install-recommends wget ca-certificates sudo locales fonts-liberation <br>

>  apt-get install --yes --no-install-recommends file git less nano patch tzdata unzip vim <br>

>  apt-get install --yes --no-install-recommends gnuplot ghostscript epstool epstool fig2dev pstoedit <br>

>  apt-get install --yes --no-install-recommends octave <br>

>  apt-get install --yes --no-install-recommends openssh-client <br>

>  apt-get install --yes --no-install-recommends firefox <br>

3. install required programs via mambaforge or pip (other conda such as miniconda  might be fine.)

> wget https://github.com/conda-forge/miniforge/releases/latest/download/Mambaforge-Linux-x86_64.sh <br>

> bash ./Mambaforge-Linux-x86_64.sh <br>

> mamba install --quiet --yes ipywidgets widgetsnbextension <br>

> mamba install --quiet --yes numpy=1.23.1 scipy pandas matplotlib ipympl zstandard zstd openssl  <br>

> mamba install --quiet --yes ase networkx pymatgen==2020.12.31 sympy   <br>

> mamba install --quiet --yes blas lapack libblas  <br>

> mamba install --quiet --yes gpy==1.10.0 gpyopt==1.2.6 paramz==0.9.5    <br>

> mamba install --quiet --yes gcc gfortran make nglview   <br>

> mamba install --quiet --yes notebook nb_conda_kernels  <br>

> mamba clean --all -f -y    <br>

> pip install rise <br> 

  Note that rise is installed via pip at python3.9. Mamba make error. <br>

4. Install GSAS-II for simulation of XRD from cif file.

  For the detail, see installation pages of GSAS-II. <br>

  https://subversion.xray.aps.anl.gov/trac/pyGSAS/wiki/LinuxSingleStepInstaller   <br>

  https://gsas-ii.readthedocs.io/en/latest/packages.html   <br>
<br>
> mamba install --quiet --yes wxpython <br>

> mamba install --quiet --yes pyopengl pillow h5py imageio subversion <br>

> svn co https://subversion.xray.aps.anl.gov/pyGSAS/trunk ~/GSASII <br> 

>

File: MgO_xrd.csv
0.000000000000000000e+00,1
0.61,1
1.22,1
1.83,1
2.44,1
3.05,1
3.66,1
4.27,1
4.88,1
5.49,1
6.1,1
6.71,1
7.32,1
7.93,1
8.54,1
9.15,1
9.76,1
10.37,1
10.98,1
11.59,1
12.2,1
12.81,1
13.42,1
14.03,1
14.64,1
15.25,1
15.86,1
16.47,1
17.08,1
17.69,1
18.3,1
18.91,1
19.52,1
20.13,1
20.74,1
21.35,1
21.96,1
22.57,1
23.18,1
23.79,1
24.4,1
25.01,1
25.62,1
26.23,1
26.84,1
27.45,1
28.06,1
28.67,1
29.28,1
29.89,1
30.5,1
31.11,1
31.72,1
32.33,1
32.94,1.269
33.55,1.55299
34.16,1.82191
34.77,2.34806
35.38,3.60601
35.99,8.0195
36.6,56.3667
37.21,99.4061
37.82,9.37899
38.43,3.89608
39.04,6.82508
39.65,8.02616
40.26,10.8818
40.87,17.078
41.48,33.0822
42.09,97.2815
42.7,1488.77
43.31,462.23
43.92,67.5963
44.53,26.5356
45.14,14.4036
45.75,9.24037
46.36,6.57409
46.97,5.02011
47.58,4.03585
48.19,3.37336
48.8,2.90626
49.41,1
50.02,1
50.63,1
51.24,1
51.85,1
52.46,1
53.07,1
53.68,1
54.29,1
54.9,1
55.51,1
56.12,1
56.73,1
57.34,1
57.95,3.69546
58.56,4.64268
59.17,6.19385
59.78,8.99793
60.39,14.8861
61,30.865
61.61,106.81
62.22,19348.6
62.83,213.334
63.44,42.4437
64.05,18.2353
64.66,10.3992
65.27,6.90858
65.88,5.05545
66.49,3.95507
67.1,3.24869
67.71,2.76839
68.32,2.42704
68.93,2.17578
69.54,1.54383
70.15,1.38473
70.76,1.51311
71.37,1.71844
71.98,2.0773
72.59,2.79235
73.2,5.00868
73.81,12.0964
74.42,127.938
75.03,113.198
75.64,12.6421
76.25,7.79037
76.86,8.87678
77.47,16.3883
78.08,67.574
78.69,1294.87
79.3,51.5306
79.91,13.7784
80.52,6.83864
81.13,4.36668
81.74,3.20197
82.35,2.55863
82.96,2.04754
83.57,1.80365
84.18,1.63602
84.79,1.63947
85.4,1.56844
86.01,1.5229
86.62,1.49803
87.23,1.22775
87.84,1.27465
88.45,1.33769
89.06,1.42523
89.67,1.55186
90.28,1.74486
90.89,2.06038
91.5,2.62959
92.11,3.82222
92.72,7.05507
93.33,22.5808
93.94,3220.53
94.55,63.9299
95.16,10.4001
95.77,4.78552
96.38,3.06518
96.99,2.31994
97.6,1.93476
98.21,1.91379
98.82,1.90813
99.43,1.86902
100.04,1.87465
100.65,1.7622
101.26,1.80482
101.87,1.9816
102.48,2.23647
103.09,2.6351
103.7,3.34606
104.31,4.95233
104.92,11.0493
105.53,277.931
106.14,114.493
106.75,11.4407
107.36,9.9229
107.97,14.264
108.58,30.042
109.19,136.001
109.8,1318.9
110.41,149.249
111.02,29.2596
111.63,13.1255
112.24,7.92008
112.85,5.56872
113.46,4.18151
114.07,3.4246
114.68,2.94654
115.29,2.63217
115.9,2.42171
116.51,2.28206
117.12,2.19418
117.73,1.74694
118.34,1.5993
118.95,1.69006
119.56,1.80314
120.17,1.94651
120.78,2.13208
121.39,2.39704
122,2.74362
122.61,3.22197
123.22,3.93174
123.83,5.05181
124.44,6.97582
125.05,10.7204
125.66,19.6582
126.27,51.6019
126.88,478.513
127.49,557.37
128.1,132.449
128.71,29.6786
129.32,13.9076
129.93,8.41468
130.54,5.84283
131.15,4.43073
131.76,3.5735
132.37,3.01624
132.98,2.63613
133.59,2.36811
134.2,2.17528
134.81,2.03571
135.42,1.9361
136.03,1.86849
136.64,1.82868
137.25,1.81555
137.86,1.5517
138.47,1.49289
139.08,1.63071
139.69,1.83613
140.3,2.1623
140.91,2.72795
141.52,3.84695
142.13,6.60512
142.74,17.2768
143.35,238.569
143.96,70.2634
144.57,116.971
145.18,11.4862
145.79,5.11662
146.4,3.24868
147.01,2.42835
147.62,1.99098
148.23,1.72902
148.84,1.5593
149.45,1.44289
150.06,1.35952
150.67,1.29773
151.28,1.25064
151.89,1.21393
152.5,1.18474
153.11,1.16116
153.72,1.14183
154.33,1.12578
154.94,1.11231
155.55,1.1009
156.16,1.09115
156.77,1.08274
157.38,1.07545
157.99,1.06908
158.6,1.06349
159.21,1.021
159.82,1
160.43,1
161.04,1
161.65,1
162.26,1
162.87,1
163.48,1
164.09,1
164.7,1
165.31,1
165.92,1
166.53,1
167.14,1
167.75,1
168.36,1
168.97,1
169.58,1
170.19,1
170.8,1
171.41,1
172.02,1
172.63,1
173.24,1
173.85,1
174.46,1
175.07,1
175.68,1
176.29,1
176.9,1
177.51,1
178.12,1
178.73,1
179.34,1
179.95,1
180,1